****************************************************
* FILE:L16RNX_0g_242_27mV.zma
* INFO: Arb1
* Data: Impedance (ohms), Phase (degrees)
****************************************************
   10.000    +7.1179   +25.2241
   10.199    +7.1646   +25.5729
   10.403    +7.2159   +25.9546
   10.611    +7.2654   +26.3698
   10.823    +7.3143   +26.7462
   11.040    +7.3638   +27.0773
   11.261    +7.4240   +27.4713
   11.485    +7.4826   +27.8764
   11.715    +7.5367   +28.2294
   11.949    +7.5969   +28.5802
   12.188    +7.6626   +28.9419
   12.432    +7.7258   +29.3169
   12.681    +7.7908   +29.7206
   12.935    +7.8600   +30.1006
   13.192    +7.9359   +30.4339
   13.456    +8.0083   +30.8396
   13.726    +8.0888   +31.1660
   14.000    +8.1660   +31.5476
   14.279    +8.2532   +31.9180
   14.565    +8.3430   +32.2666
   14.856    +8.4278   +32.6369
   15.153    +8.5244   +32.9992
   15.456    +8.6194   +33.3537
   15.766    +8.7147   +33.7001
   16.080    +8.8250   +34.0506
   16.402    +8.9375   +34.3787
   16.729    +9.0475   +34.7416
   17.064    +9.1665   +35.0874
   17.405    +9.2968   +35.3748
   17.754    +9.4229   +35.7198
   18.108    +9.5535   +36.0441
   18.471    +9.6956   +36.3417
   18.840    +9.8333   +36.6209
   19.217    +9.9854   +36.9204
   19.601   +10.1455   +37.1758
   19.992   +10.3099   +37.4655
   20.392   +10.4906   +37.7438
   20.800   +10.6669   +37.9877
   21.216   +10.8608   +38.2034
   21.640   +11.0574   +38.4243
   22.072   +11.2628   +38.6304
   22.514   +11.4761   +38.8159
   22.964   +11.7160   +38.9441
   23.423   +11.9555   +39.0931
   23.891   +12.2031   +39.2414
   24.368   +12.4711   +39.3080
   24.855   +12.7487   +39.3351
   25.353   +13.0434   +39.3596
   25.859   +13.3501   +39.3884
   26.376   +13.6814   +39.2786
   26.903   +14.0261   +39.2116
   27.441   +14.3937   +39.1033
   27.990   +14.7803   +38.9029
   28.550   +15.1784   +38.6935
   29.120   +15.6101   +38.3519
   29.703   +16.0710   +38.0380
   30.297   +16.5645   +37.6217
   30.902   +17.0649   +37.1369
   31.520   +17.5947   +36.5159
   32.150   +18.1563   +35.9189
   32.793   +18.7509   +35.1350
   33.448   +19.3877   +34.1761
   34.117   +20.0427   +33.1419
   34.799   +20.7555   +32.0255
   35.495   +21.4838   +30.6172
   36.204   +22.2182   +29.1482
   36.928   +22.9868   +27.5201
   37.666   +23.7829   +25.6461
   38.419   +24.5689   +23.5874
   39.188   +25.3255   +21.3547
   39.971   +26.0853   +18.9414
   40.770   +26.8042   +16.3026
   41.585   +27.4770   +13.3779
   42.416   +28.0230   +10.3371
   43.265   +28.5099    +7.0760
   44.129   +28.8361    +3.8023
   45.012   +29.0178    +0.3479
   45.911   +29.0123    -3.1621
   46.829   +28.8495    -6.5988
   47.766   +28.5544   -10.0148
   48.720   +28.0897   -13.3943
   49.694   +27.4801   -16.5230
   50.688   +26.7921   -19.5105
   51.701   +26.0265   -22.3444
   52.734   +25.2014   -24.9462
   53.789   +24.3606   -27.3507
   54.864   +23.4740   -29.4946
   55.961   +22.6224   -31.4039
   57.079   +21.7546   -33.0924
   58.221   +20.9237   -34.6173
   59.385   +20.2168   -35.8375
   60.571   +19.3875   -37.1814
   61.782   +18.6147   -38.2436
   63.018   +17.8875   -38.9618
   64.277   +17.2606   -39.4279
   65.563   +16.7265   -40.1253
   66.873   +16.1547   -40.7548
   68.210   +15.6070   -41.2104
   69.573   +15.0706   -41.6735
   70.965   +14.5727   -41.9196
   72.383   +14.0983   -42.0682
   73.830   +13.6611   -42.1779
   75.307   +13.2359   -42.1891
   76.812   +12.8368   -42.1428
   78.348   +12.4688   -42.0047
   79.913   +12.1126   -41.8501
   81.511   +11.7837   -41.5815
   83.141   +11.4725   -41.2579
   84.803   +11.1868   -40.8199
   86.498   +10.9468   -40.3965
   88.228   +10.7115   -40.1287
   89.991   +10.4821   -39.8158
   91.790   +10.2491   -39.4305
   93.625   +10.0401   -39.0210
   95.497    +9.8240   -38.6108
   97.406    +9.6310   -38.0737
   99.354    +9.4451   -37.5598
  101.339    +9.2848   -37.0496
  103.365    +9.1337   -36.5289
  105.432    +8.9703   -36.1499
  107.539    +8.8139   -35.5878
  109.689    +8.6671   -34.9474
  111.882    +8.5442   -34.3587
  114.118    +8.4241   -33.8487
  116.400    +8.3070   -33.2807
  118.727    +8.1862   -32.7779
  121.101    +8.0683   -32.2448
  123.521    +7.9633   -31.5864
  125.990    +7.8583   -30.9807
  128.510    +7.7619   -30.3688
  131.078    +7.6688   -29.7045
  133.699    +7.5849   -29.0710
  136.372    +7.5041   -28.4522
  139.098    +7.4225   -27.8178
  141.879    +7.3509   -27.1572
  144.715    +7.2818   -26.5289
  147.608    +7.2135   -25.8809
  150.559    +7.1499   -25.2166
  153.568    +7.0895   -24.5683
  156.639    +7.0325   -23.8943
  159.771    +6.9798   -23.2162
  162.964    +6.9298   -22.5217
  166.222    +6.8838   -21.7851
  169.545    +6.8505   -20.9363
  172.935    +6.8860   -20.1727
  176.392    +6.8804   -20.3251
  179.918    +6.7884   -20.1057
  183.515    +6.7207   -19.4008
  187.184    +6.6832   -18.6694
  190.926    +6.6471   -18.1392
  194.742    +6.6085   -17.5141
  198.636    +6.5775   -16.8832
  202.606    +6.5486   -16.2741
  206.656    +6.5234   -15.6796
  210.788    +6.4997   -15.0929
  215.002    +6.4755   -14.4956
  219.300    +6.4561   -13.9247
  223.684    +6.4379   -13.3519
  228.156    +6.4203   -12.7713
  232.717    +6.4068   -12.2137
  237.369    +6.3912   -11.6816
  242.114    +6.3756   -11.1239
  246.955    +6.3633   -10.5723
  251.892    +6.3531   -10.0440
  256.927    +6.3418    -9.4947
  262.063    +6.3366    -8.9236
  267.303    +6.3422    -8.4730
  272.646    +6.3246    -8.0131
  278.097    +6.3146    -7.4745
  283.656    +6.3080    -6.9591
  289.327    +6.3039    -6.4353
  295.110    +6.3015    -5.9348
  301.011    +6.2984    -5.4293
  307.028    +6.2969    -4.9339
  313.166    +6.2962    -4.4263
  319.427    +6.2966    -3.9506
  325.813    +6.2984    -3.4513
  332.325    +6.2999    -2.9638
  338.969    +6.3022    -2.4845
  345.745    +6.3083    -1.9937
  352.657    +6.3131    -1.5157
  359.707    +6.3191    -1.0259
  366.898    +6.3271    -0.5384
  374.233    +6.3390    -0.0541
  381.714    +6.3531    +0.3740
  389.346    +6.3579    +0.8463
  397.129    +6.3702    +1.3609
  405.067    +6.3898    +1.8550
  413.166    +6.4092    +2.3516
  421.425    +6.4347    +2.8619
  429.850    +6.4750    +3.3386
  438.443    +6.5191    +3.6889
  447.208    +6.5589    +3.8440
  456.148    +6.5930    +4.0694
  465.268    +6.6168    +4.2112
  474.568    +6.6402    +4.4291
  484.056    +6.6729    +4.5791
  493.732    +6.7081    +4.5749
  503.603    +6.7174    +4.3785
  513.671    +6.6901    +4.2417
  523.939    +6.6441    +4.3683
  534.414    +6.6051    +4.7170
  545.098    +6.5800    +5.2086
  555.994    +6.5672    +5.7327
  567.109    +6.5646    +6.2558
  578.446    +6.5675    +6.7411
  590.011    +6.5738    +7.2391
  601.806    +6.5853    +7.7170
  613.836    +6.6007    +8.1602
  626.107    +6.6150    +8.6009
  638.624    +6.6316    +9.0332
  651.391    +6.6507    +9.4377
  664.413    +6.6655    +9.8271
  677.695    +6.6851   +10.2191
  691.243    +6.7018   +10.6198
  705.063    +6.7192   +11.0342
  719.157    +6.7377   +11.4232
  733.534    +6.7590   +11.8371
  748.198    +6.7819   +12.2251
  763.155    +6.8031   +12.6033
  778.412    +6.8270   +12.9893
  793.974    +6.8508   +13.3784
  809.846    +6.8751   +13.7623
  826.035    +6.9017   +14.1544
  842.549    +6.9281   +14.5279
  859.393    +6.9614   +14.8883
  876.572    +6.9823   +15.2196
  894.097    +7.0077   +15.6153
  911.971    +7.0360   +15.9983
  930.202    +7.0672   +16.3804
  948.798    +7.0991   +16.7566
  967.765    +7.1371   +17.1281
  987.112    +7.1636   +17.4586
 1006.846    +7.1984   +17.8486
 1026.974    +7.2340   +18.2400
 1047.504    +7.2729   +18.6124
 1068.444    +7.3166   +18.9777
 1089.804    +7.3654   +19.2085
 1111.591    +7.3909   +19.4038
 1133.813    +7.4146   +19.7881
 1156.479    +7.4504   +20.1885
 1179.598    +7.4889   +20.5751
 1203.180    +7.5277   +20.9372
 1227.232    +7.5712   +21.2981
 1251.767    +7.6141   +21.6485
 1276.791    +7.6594   +21.9989
 1302.315    +7.7068   +22.3413
 1328.350    +7.7568   +22.6742
 1354.905    +7.8052   +22.9948
 1381.991    +7.8598   +23.2982
 1409.619    +7.9081   +23.5788
 1437.799    +7.9584   +23.8627
 1466.542    +8.0094   +24.1250
 1495.860    +8.0576   +24.4121
 1525.765    +8.1036   +24.6575
 1556.266    +8.1488   +24.9537
 1587.378    +8.1936   +25.2263
 1619.111    +8.2407   +25.5465
 1651.479    +8.2889   +25.8646
 1684.494    +8.3392   +26.1938
 1718.169    +8.3894   +26.5320
 1752.518    +8.4446   +26.8638
 1787.552    +8.4988   +27.2032
 1823.287    +8.5591   +27.5308
 1859.737    +8.6214   +27.8599
 1896.915    +8.6893   +28.1804
 1934.837    +8.7754   +28.5858
 1973.517    +8.8203   +28.7105
 2012.970    +8.8869   +28.9573
 2053.211    +8.9505   +29.2299
 2094.257    +9.0144   +29.4894
 2136.124    +9.0804   +29.7480
 2178.827    +9.1430   +29.9975
 2222.385    +9.2065   +30.2604
 2266.813    +9.2691   +30.5163
 2312.129    +9.3323   +30.8014
 2358.351    +9.3951   +31.0957
 2405.497    +9.4599   +31.3929
 2453.586    +9.5298   +31.6759
 2502.636    +9.5965   +31.9963
 2552.666    +9.6673   +32.3288
 2603.697    +9.7422   +32.6568
 2655.748    +9.8198   +32.9748
 2708.840    +9.9009   +33.2943
 2762.992    +9.9808   +33.6218
 2818.228   +10.0683   +33.9283
 2874.567   +10.1565   +34.2472
 2932.033   +10.2458   +34.5533
 2990.648   +10.3394   +34.8417
 3050.435   +10.4342   +35.1422
 3111.417   +10.5315   +35.4242
 3173.617   +10.6273   +35.7262
 3237.062   +10.7330   +36.0046
 3301.774   +10.8391   +36.2757
 3367.780   +10.9362   +36.5509
 3435.106   +11.0459   +36.8168
 3503.778   +11.1594   +37.0878
 3573.823   +11.2758   +37.3443
 3645.268   +11.3947   +37.5644
 3718.141   +11.5029   +37.7713
 3792.471   +11.6164   +38.0220
 3868.287   +11.7354   +38.3046
 3945.618   +11.8639   +38.5742
 4024.496   +11.9929   +38.8116
 4104.950   +12.1300   +39.0713
 4187.013   +12.2719   +39.3030
 4270.716   +12.4211   +39.5406
 4356.093   +12.5881   +39.7907
 4443.176   +12.7753   +39.9969
 4532.000   +13.0114   +39.8208
 4622.601   +12.9977   +39.8905
 4715.012   +13.2536   +40.4281
 4809.270   +13.4378   +40.5026
 4905.413   +13.7830   +40.6929
 5003.478   +14.2025   +40.1967
 5103.503   +14.7029   +38.2829
 5205.528   +14.3680   +33.5576
 5309.593   +13.2662   +35.1452
 5415.737   +13.2363   +37.8922
 5524.004   +13.4393   +39.3143
 5634.436   +13.6687   +40.1162
 5747.074   +13.8735   +40.6335
 5861.965   +14.0656   +41.0203
 5979.152   +14.2584   +41.3143
 6098.683   +14.4396   +41.5485
 6220.603   +14.6238   +41.7318
 6344.960   +14.7939   +41.8734
 6471.803   +14.9558   +42.0346
 6601.182   +15.1147   +42.2283
 6733.146   +15.2823   +42.3984
 6867.750   +15.4606   +42.5522
 7005.045   +15.6124   +42.6212
 7145.084   +15.7706   +42.8457
 7287.922   +15.9461   +42.9979
 7433.616   +16.1154   +43.1789
 7582.223   +16.2872   +43.3123
 7733.800   +16.4717   +43.4583
 7888.408   +16.6456   +43.5782
 8046.106   +16.8206   +43.7266
 8206.957   +17.0004   +43.8560
 8371.024   +17.1807   +43.9786
 8538.370   +17.3716   +44.1238
 8709.063   +17.5609   +44.2338
 8883.167   +17.7433   +44.3324
 9060.752   +17.9356   +44.4565
 9241.887   +18.1347   +44.5534
 9426.643   +18.3091   +44.6668
 9615.092   +18.5049   +44.7752
 9807.309   +18.7109   +44.8904
10003.368   +18.9094   +44.9883
10203.348   +19.1205   +45.0930
10407.324   +19.3100   +45.1874
10615.379   +19.5084   +45.2781
10827.592   +19.7338   +45.3652
11044.048   +19.9396   +45.4735
11264.832   +20.1479   +45.5573
11490.028   +20.3725   +45.6357
11719.728   +20.5635   +45.7345
11954.019   +20.7759   +45.8208
12192.993   +21.0056   +45.9136
12436.745   +21.2317   +46.0114
12685.370   +21.4502   +46.0672
12938.966   +21.6548   +46.1603
13197.631   +21.8876   +46.2812
13461.467   +22.1217   +46.3765
13730.577   +22.3460   +46.4476
14005.067   +22.5988   +46.5217
14285.045   +22.8029   +46.6169
14570.619   +23.0675   +46.7104
14861.902   +23.3198   +46.7797
15159.010   +23.5471   +46.8828
15462.056   +23.7808   +46.9644
15771.160   +24.0187   +47.0295
16086.443   +24.2781   +47.0910
16408.031   +24.5392   +47.1758
16736.045   +24.7583   +47.2752
17070.619   +25.0138   +47.3933
17411.881   +25.2935   +47.4663
17759.965   +25.5449   +47.5880
18115.006   +25.8047   +47.6529
18477.146   +26.0716   +47.7604
18846.525   +26.3432   +47.8392
19223.289   +26.6334   +47.9535
19607.586   +26.8690   +48.0411
19999.564   +27.1911   +48.1313
20000.000   +27.1868   +48.1256
